Folder: Soft-Glove-Dissertation/tensile/test_1.is_qtest_Exports

Note: README.md
# Soft-Glove-MSc
This project aims to construct a soft glove-based passive rehabilitation training system to serve the finger rehabilitation process of patients with upper limb motor dysfunction after stroke.

File: test_1_1.csv
Time,Displacement,Force
(s),(mm),(kgf)
"0.0000","0.0000","0.0007"
"0.4000","0.3014","0.0098"
"0.8000","0.6364","0.0179"
"1.2000","0.9674","0.0252"
"1.6000","1.3021","0.0330"
"2.0000","1.6344","0.0402"
"2.4000","1.9665","0.0485"
"2.8000","2.3026","0.0566"
"3.2000","2.6347","0.0641"
"3.6000","2.9684","0.0726"
"4.0000","3.3018","0.0801"
"4.4000","3.6343","0.0883"
"4.8000","3.9678","0.0965"
"5.2000","4.3009","0.1045"
"5.6000","4.6360","0.1129"
"6.0000","4.9677","0.1210"
"6.4000","5.3010","0.1296"
"6.8000","5.6361","0.1376"
"7.2000","5.9674","0.1458"
"7.6000","6.3019","0.1545"
"8.0000","6.6344","0.1625"
"8.4000","6.9666","0.1716"
"8.8000","7.3024","0.1805"
"9.2000","7.6349","0.1890"
"9.6000","7.9682","0.1986"
"10.0000","8.3014","0.2074"
"10.4000","8.6342","0.2168"
"10.8000","8.9680","0.2264"
"11.2000","9.3010","0.2359"
"11.6000","9.6359","0.2459"
"12.0000","9.9676","0.2556"
"12.4000","10.3011","0.2659"
"12.8000","10.6360","0.2760"
"13.2000","10.9674","0.2862"
"13.6000","11.3018","0.2971"
"14.0000","11.6343","0.3075"
"14.4000","11.9667","0.3187"
"14.8000","12.3025","0.3299"
"15.2000","12.6348","0.3407"
"15.6000","12.9683","0.3526"
"16.0000","13.3014","0.3638"
"16.4000","13.6345","0.3756"
"16.8000","13.9681","0.3874"
"17.2000","14.3011","0.3990"
"17.6000","14.6357","0.4108"
"18.0000","14.9676","0.4217"
"18.4000","15.3012","0.4333"
"18.8000","15.6363","0.4441"
"19.2000","15.9678","0.4544"
"19.6000","16.3018","0.4650"
"20.0000","16.6341","0.4745"
"20.4000","16.9667","0.4847"
"20.8000","17.3024","0.4944"
"21.2000","17.6350","0.5035"
"21.6000","17.9681","0.5133"
"22.0000","18.3014","0.5223"
"22.4000","18.6344","0.5315"
"22.8000","18.9681","0.5407"
"23.2000","19.3013","0.5494"
"23.6000","19.6357","0.5584"
"24.0000","19.9675","0.5668"
"24.4000","20.3013","0.5757"
"24.8000","20.6363","0.5844"
"25.2000","20.9680","0.5927"
"25.6000","21.3019","0.6014"
"26.0000","21.6342","0.6092"
"26.4000","21.9665","0.6177"
"26.8000","22.3026","0.6260"
"27.2000","22.6346","0.6336"
"27.6000","22.9681","0.6422"
"28.0000","23.3018","0.6498"
"28.4000","23.6344","0.6578"
"28.8000","23.9682","0.6656"
"29.2000","24.3011","0.6732"
"29.6000","24.6359","0.6811"
"30.0000","24.9677","0.6884"
"30.4000","25.3012","0.6962"
"30.8000","25.6362","0.7037"
"31.2000","25.9674","0.7109"
"31.6000","26.3017","0.7186"
"32.0000","26.6342","0.7254"
"32.4000","26.9668","0.7330"
"32.8000","27.3026","0.7402"
"33.2000","27.6346","0.7469"
"33.6000","27.9680","0.7545"
"34.0000","28.3017","0.7612"
"34.4000","28.6347","0.7683"
"34.8000","28.9681","0.7754"
"35.2000","29.3010","0.7821"
"35.6000","29.6359","0.7892"
"36.0000","29.9679","0.7958"
"36.4000","30.3011","0.8029"
"36.8000","30.6362","0.8095"
"37.2000","30.9676","0.8160"
"37.6000","31.3020","0.8230"
"38.0000","31.6342","0.8291"
"38.4000","31.9670","0.8360"
"38.8000","32.3022","0.8426"
"39.2000","32.6348","0.8486"
"39.6000","32.9684","0.8556"
"40.0000","33.3014","0.8616"
"40.4000","33.6343","0.8681"
"40.8000","33.9680","0.8746"
"41.2000","34.3013","0.8807"
"41.6000","34.6347","0.8871"
"42.0000","34.9678","0.8931"
"42.4000","35.3012","0.8995"
"42.8000","35.6361","0.9057"
"43.2000","35.9676","0.9116"
"43.6000","36.3019","0.9181"
"44.0000","36.6341","0.9237"
"44.4000","36.9667","0.9300"
"44.8000","37.3025","0.9361"
"45.2000","37.6348","0.9417"
"45.6000","37.9684","0.9482"
"46.0000","38.3016","0.9538"
"46.4000","38.6343","0.9597"
"46.8000","38.9681","0.9658"
"47.2000","39.3008","0.9715"
"47.6000","39.6360","0.9776"
"48.0000","39.9674","0.9830"
"48.4000","40.3012","0.9891"
"48.8000","40.6360","0.9948"
"49.2000","40.9675","1.0004"
"49.6000","41.3019","1.0065"
"50.0000","41.6343","1.0118"
"50.4000","41.9668","1.0177"
"50.8000","42.3022","1.0234"
"51.2000","42.6347","1.0287"
"51.6000","42.9683","1.0347"
"52.0000","43.3015","1.0400"
"52.4000","43.6345","1.0457"
"52.8000","43.9678","1.0513"
"53.2000","44.3011","1.0567"
"53.6000","44.6358","1.0624"
"54.0000","44.9677","1.0676"
"54.4000","45.3010","1.0733"
"54.8000","45.6362","1.0787"
"55.2000","45.9676","1.0839"
"55.6000","46.3022","1.0897"
"56.0000","46.6347","1.0946"
"56.4000","46.9669","1.1003"
"56.8000","47.3023","1.1056"
"57.2000","47.6349","1.1106"
"57.6000","47.9684","1.1164"
"58.0000","48.3015","1.1213"
"58.4000","48.6343","1.1267"
"58.8000","48.9681","1.1321"
"59.2000","49.3012","1.1372"
"59.6000","49.6359","1.1426"
"60.0000","49.9677","1.1475"
"60.4000","50.3014","1.1530"
"60.8000","50.6363","1.1581"
"61.2000","50.9677","1.1630"
"61.6000","51.3019","1.1685"
"62.0000","51.6344","1.1732"
"62.4000","51.9666","1.1784"
"62.8000","52.3024","1.1835"
"63.2000","52.6347","1.1882"
"63.6000","52.9683","1.1938"
"64.0000","53.3015","1.1984"
"64.4000","53.6346","1.2034"
"64.8000","53.9679","1.2085"
"65.2000","54.3011","1.2133"
"65.6000","54.6360","1.2185"
"66.0000","54.9676","1.2230"
"66.4000","55.3013","1.2282"
"66.8000","55.6363","1.2331"
"67.2000","55.9675","1.2376"
"67.6000","56.3018","1.2429"
"68.0000","56.6343","1.2473"
"68.4000","56.9668","1.2524"
"68.8000","57.3026","1.2572"
"69.2000","57.6347","1.2616"
"69.6000","57.9683","1.2668"
"70.0000","58.3017","1.2712"
"70.4000","58.6343","1.2761"
"70.8000","58.9680","1.2809"
"71.2000","59.3012","1.2855"
"71.6000","59.6358","1.2905"
"72.0000","59.9678","1.2949"
"72.4000","60.3013","1.2999"
"72.8000","60.6365","1.3047"
"73.2000","60.9676","1.3091"
"73.6000","61.3018","1.3141"
"74.0000","61.6343","1.3183"
"74.4000","61.9668","1.3232"
"74.8000","62.3026","1.3279"
"75.2000","62.6347","1.3321"
"75.6000","62.9681","1.3372"
"76.0000","63.3015","1.3414"
"76.4000","63.6345","1.3461"
"76.8000","63.9679","1.3507"
"77.2000","64.3009","1.3551"
"77.6000","64.6359","1.3598"
"78.0000","64.9676","1.3639"
"78.4000","65.3012","1.3685"
"78.8000","65.6362","1.3728"
"79.2000","65.9675","1.3769"
"79.6000","66.3019","1.3816"
"80.0000","66.6343","1.3855"
"80.4000","66.9666","1.3901"
"80.8000","67.3026","1.3944"
"81.2000","67.6349","1.3982"
"81.6000","67.9682","1.4028"
"82.0000","68.3015","1.4063"
"82.4000","68.6344","1.4103"
"82.8000","68.9679","1.4142"
"83.2000","69.3006","1.4173"
"83.6000","69.6360","1.4205"
"84.0000","69.9676","1.4224"
"84.4000","70.3013","1.4232"
"84.8000","70.6362","1.4211"
"85.2000","70.9677","1.2246"
"85.6000","71.3017","1.2304"
"86.0000","71.6344","1.2434"
"86.4000","71.9667","1.2586"
"86.8000","72.3023","1.2740"
"87.2000","72.6350","1.2894"
"87.6000","72.9682","1.3056"
"88.0000","73.3016","1.3211"
"88.4000","73.6345","1.3366"
"88.8000","73.9678","1.3519"
"89.2000","74.3011","1.3662"
"89.6000","74.6358","1.3801"
"90.0000","74.9677","1.3920"
"90.4000","75.3012","1.4034"
"90.8000","75.6362","1.4131"
"91.2000","75.9676","1.4212"
"91.6000","76.3016","1.4291"
"92.0000","76.6345","1.4353"
"92.4000","76.9666","1.4416"
"92.8000","77.3025","1.4474"
"93.2000","77.6347","1.4522"
"93.6000","77.9681","1.4577"
"94.0000","78.3016","1.4623"
"94.4000","78.6343","1.4671"
"94.8000","78.9681","1.4719"
"95.2000","79.3010","1.4762"
"95.6000","79.6359","1.4809"
"96.0000","79.9675","1.4851"
"96.4000","80.3012","1.4899"
"96.8000","80.6362","1.4941"
"97.2000","80.9675","1.4982"
"97.6000","81.3018","1.5028"
"98.0000","81.6344","1.5067"
"98.4000","81.9668","1.5111"
"98.8000","82.3025","1.5154"
"99.2000","82.6349","1.5193"
"99.6000","82.9681","1.5240"
"100.0000","83.3018","1.5280"
"100.4000","83.6342","1.5324"
"100.8000","83.9682","1.5369"
"101.2000","84.3014","1.5412"
"101.6000","84.6357","1.5457"
"102.0000","84.9679","1.5496"
"102.4000","85.3012","1.5542"
"102.8000","85.6366","1.5585"
"103.2000","85.9676","1.5624"
"103.6000","86.3018","1.5669"
"104.0000","86.6344","1.5706"
"104.4000","86.9667","1.5751"
"104.8000","87.3027","1.5792"
"105.2000","87.6348","1.5829"
"105.6000","87.9681","1.5876"
"106.0000","88.3017","1.5912"
"106.4000","88.6345","1.5954"
"106.8000","88.9682","1.5997"
"107.2000","89.3011","1.6037"
"107.6000","89.6357","1.6079"
"108.0000","89.9678","1.6116"
"108.4000","90.3013","1.6162"
"108.8000","90.6361","1.6203"
"109.2000","90.9674","1.6241"
"109.6000","91.3018","1.6285"
"110.0000","91.6346","1.6321"
"110.4000","91.9667","1.6365"
"110.8000","92.3025","1.6407"
"111.2000","92.6347","1.6446"
"111.6000","92.9682","1.6491"
"112.0000","93.3018","1.6530"
"112.4000","93.6344","1.6571"
"112.8000","93.9680","1.6614"
"113.2000","94.3014","1.6654"
"113.6000","94.6358","1.6697"
"114.0000","94.9677","1.6734"
"114.4000","95.3013","1.6766"
"114.4260","95.3253","0.9864"

File: test_1_2.csv
Time,Displacement,Force
(s),(mm),(kgf)
"0.0000","0.0000","0.0009"
"0.4000","0.3145","0.0076"
"0.8000","0.6470","0.0144"
"1.2000","0.9790","0.0215"
"1.6000","1.3135","0.0281"
"2.0000","1.6449","0.0342"
"2.4000","1.9795","0.0410"
"2.8000","2.3138","0.0469"
"3.2000","2.6460","0.0532"
"3.6000","2.9799","0.0598"
"4.0000","3.3127","0.0658"
"4.4000","3.6462","0.0726"
"4.8000","3.9789","0.0788"
"5.2000","4.3133","0.0856"
"5.6000","4.6473","0.0920"
"6.0000","4.9787","0.0985"
"6.4000","5.3142","0.1056"
"6.8000","5.6467","0.1117"
"7.2000","5.9788","0.1187"
"7.6000","6.3138","0.1256"
"8.0000","6.6454","0.1321"
"8.4000","6.9795","0.1394"
"8.8000","7.3138","0.1456"
"9.2000","7.6461","0.1523"
"9.6000","7.9798","0.1591"
"10.0000","8.3127","0.1655"
"10.4000","8.6463","0.1725"
"10.8000","8.9789","0.1790"
"11.2000","9.3132","0.1859"
"11.6000","9.6473","0.1926"
"12.0000","9.9784","0.1995"
"12.4000","10.3142","0.2068"
"12.8000","10.6467","0.2132"
"13.2000","10.9788","0.2205"
"13.6000","11.3136","0.2278"
"14.0000","11.6452","0.2347"
"14.4000","11.9795","0.2423"
"14.8000","12.3136","0.2488"
"15.2000","12.6459","0.2563"
"15.6000","12.9800","0.2637"
"16.0000","13.3126","0.2705"
"16.4000","13.6462","0.2781"
"16.8000","13.9788","0.2851"
"17.2000","14.3133","0.2926"
"17.6000","14.6472","0.2998"
"18.0000","14.9785","0.3071"
"18.4000","15.3144","0.3151"
"18.8000","15.6467","0.3219"
"19.2000","15.9787","0.3297"
"19.6000","16.3134","0.3373"
"20.0000","16.6449","0.3446"
"20.4000","16.9796","0.3527"
"20.8000","17.3136","0.3600"
"21.2000","17.6459","0.3678"
"21.6000","17.9799","0.3758"
"22.0000","18.3126","0.3834"
"22.4000","18.6463","0.3917"
"22.8000","18.9788","0.3995"
"23.2000","19.3133","0.4079"
"23.6000","19.6471","0.4159"
"24.0000","19.9783","0.4242"
"24.4000","20.3142","0.4331"
"24.8000","20.6467","0.4409"
"25.2000","20.9788","0.4496"
"25.6000","21.3135","0.4580"
"26.0000","21.6445","0.4662"
"26.4000","21.9796","0.4752"
"26.8000","22.3136","0.4830"
"27.2000","22.6460","0.4912"
"27.6000","22.9796","0.4994"
"28.0000","23.3127","0.5070"
"28.4000","23.6463","0.5149"
"28.8000","23.9791","0.5221"
"29.2000","24.3132","0.5295"
"29.6000","24.6471","0.5366"
"30.0000","24.9785","0.5436"
"30.4000","25.3143","0.5509"
"30.8000","25.6467","0.5572"
"31.2000","25.9787","0.5641"
"31.6000","26.3135","0.5708"
"32.0000","26.6449","0.5771"
"32.4000","26.9796","0.5841"
"32.8000","27.3137","0.5900"
"33.2000","27.6459","0.5964"
"33.6000","27.9798","0.6029"
"34.0000","28.3126","0.6088"
"34.4000","28.6465","0.6153"
"34.8000","28.9790","0.6211"
"35.2000","29.3133","0.6272"
"35.6000","29.6471","0.6329"
"36.0000","29.9788","0.6384"
"36.4000","30.3141","0.6435"
"36.8000","30.6467","0.6468"
"37.2000","30.9787","0.6520"
"37.6000","31.3135","0.6572"
"38.0000","31.6450","0.6618"
"38.4000","31.9797","0.6667"
"38.8000","32.3135","0.6695"
"39.2000","32.6460","0.6699"
"39.6000","32.9799","0.6707"
"40.0000","33.3124","0.6768"
"40.4000","33.6465","0.6829"
"40.8000","33.9789","0.6878"
"41.2000","34.3133","0.6939"
"41.6000","34.6473","0.6993"
"42.0000","34.9785","0.7048"
"42.4000","35.3143","0.7108"
"42.8000","35.6466","0.7158"
"43.2000","35.9787","0.7215"
"43.6000","36.3135","0.7269"
"44.0000","36.6451","0.7320"
"44.4000","36.9797","0.7378"
"44.8000","37.3137","0.7426"
"45.2000","37.6459","0.7479"
"45.6000","37.9800","0.7534"
"46.0000","38.3126","0.7584"
"46.4000","38.6463","0.7639"
"46.8000","38.9790","0.7689"
"47.2000","39.3131","0.7742"
"47.6000","39.6473","0.7793"
"48.0000","39.9785","0.7843"
"48.4000","40.3145","0.7899"
"48.8000","40.6466","0.7945"
"49.2000","40.9790","0.7998"
"49.6000","41.3137","0.8049"
"50.0000","41.6449","0.8099"
"50.4000","41.9797","0.8153"
"50.8000","42.3136","0.8198"
"51.2000","42.6463","0.8249"
"51.6000","42.9798","0.8299"
"52.0000","43.3128","0.8347"
"52.4000","43.6463","0.8400"
"52.8000","43.9788","0.8447"
"53.2000","44.3135","0.8499"
"53.6000","44.6473","0.8547"
"54.0000","44.9785","0.8595"
"54.4000","45.3143","0.8649"
"54.8000","45.6467","0.8692"
"55.2000","45.9787","0.8744"
"55.6000","46.3135","0.8793"
"56.0000","46.6450","0.8840"
"56.4000","46.9797","0.8892"
"56.8000","47.3135","0.8935"
"57.2000","47.6459","0.8984"
"57.6000","47.9800","0.9034"
"58.0000","48.3124","0.9078"
"58.4000","48.6463","0.9129"
"58.8000","48.9789","0.9174"
"59.2000","49.3134","0.9224"
"59.6000","49.6470","0.9271"
"60.0000","49.9785","0.9317"
"60.4000","50.3142","0.9369"
"60.8000","50.6467","0.9410"
"61.2000","50.9787","0.9459"
"61.6000","51.3136","0.9506"
"62.0000","51.6449","0.9551"
"62.4000","51.9798","0.9602"
"62.8000","52.3136","0.9643"
"63.2000","52.6459","0.9691"
"63.6000","52.9801","0.9739"
"64.0000","53.3128","0.9783"
"64.4000","53.6465","0.9832"
"64.8000","53.9787","0.9876"
"65.2000","54.3132","0.9924"
"65.6000","54.6472","0.9969"
"66.0000","54.9786","1.0014"
"66.4000","55.3144","1.0064"
"66.8000","55.6468","1.0105"
"67.2000","55.9790","1.0153"
"67.6000","56.3136","1.0198"
"68.0000","56.6451","1.0242"
"68.4000","56.9795","1.0292"
"68.8000","57.3138","1.0332"
"69.2000","57.6458","1.0378"
"69.6000","57.9801","1.0425"
"70.0000","58.3124","1.0468"
"70.4000","58.6465","1.0515"
"70.8000","58.9790","1.0558"
"71.2000","59.3134","1.0605"
"71.6000","59.6471","1.0648"
"72.0000","59.9787","1.0692"
"72.4000","60.3145","1.0742"
"72.8000","60.6468","1.0781"
"73.2000","60.9788","1.0827"
"73.6000","61.3134","1.0872"
"74.0000","61.6450","1.0914"
"74.4000","61.9796","1.0962"
"74.8000","62.3136","1.1001"
"75.2000","62.6459","1.1047"
"75.6000","62.9797","1.1092"
"76.0000","63.3127","1.1134"
"76.4000","63.6465","1.1181"
"76.8000","63.9790","1.1222"
"77.2000","64.3130","1.1268"
"77.6000","64.6471","1.1310"
"78.0000","64.9781","1.1354"
"78.4000","65.3145","1.1401"
"78.8000","65.6469","1.1440"
"79.2000","65.9790","1.1487"
"79.6000","66.3135","1.1529"
"80.0000","66.6450","1.1571"
"80.4000","66.9797","1.1619"
"80.8000","67.3137","1.1657"
"81.2000","67.6460","1.1702"
"81.6000","67.9798","1.1747"
"82.0000","68.3126","1.1787"
"82.4000","68.6465","1.1834"
"82.8000","68.9789","1.1875"
"83.2000","69.3131","1.1920"
"83.6000","69.6472","1.1962"
"84.0000","69.9787","1.2004"
"84.4000","70.3143","1.2053"
"84.8000","70.6469","1.2090"
"85.2000","70.9788","1.2135"
"85.6000","71.3137","1.2178"
"86.0000","71.6450","1.2219"
"86.4000","71.9797","1.2266"
"86.8000","72.3137","1.2303"
"87.2000","72.6460","1.2348"
"87.6000","72.9799","1.2393"
"88.0000","73.3125","1.2433"
"88.4000","73.6465","1.2478"
"88.8000","73.9788","1.2517"
"89.2000","74.3133","1.2563"
"89.6000","74.6471","1.2604"
"90.0000","74.9784","1.2645"
"90.4000","75.3143","1.2691"
"90.8000","75.6468","1.2729"
"91.2000","75.9787","1.2773"
"91.6000","76.3132","1.2814"
"92.0000","76.6450","1.2855"
"92.4000","76.9796","1.2902"
"92.8000","77.3137","1.2938"
"93.2000","77.6458","1.2981"
"93.6000","77.9798","1.3024"
"94.0000","78.3123","1.3063"
"94.4000","78.6462","1.3107"
"94.8000","78.9789","1.3147"
"95.2000","79.3132","1.3190"
"95.6000","79.6472","1.3231"
"96.0000","79.9783","1.3270"
"96.4000","80.3141","1.3317"
"96.8000","80.6467","1.3352"
"97.2000","80.9790","1.3395"
"97.6000","81.3133","1.3436"
"98.0000","81.6451","1.3475"
"98.4000","81.9798","1.3520"
"98.8000","82.3136","1.3555"
"99.2000","82.6460","1.3597"
"99.6000","82.9795","1.3639"
"100.0000","83.3128","1.3677"
"100.4000","83.6463","1.3720"
"100.8000","83.9789","1.3758"
"101.2000","84.3134","1.3801"
"101.6000","84.6471","1.3839"
"102.0000","84.9784","1.3877"
"102.4000","85.3142","1.3921"
"102.8000","85.6468","1.3955"
"103.2000","85.9790","1.3994"
"103.6000","86.3137","1.4031"
"104.0000","86.6453","1.4063"
"104.4000","86.9797","1.4099"
"104.8000","87.3130","1.4100"
"105.0350","87.5105","0.8214"

File: test_1_3.csv
Time,Displacement,Force
(s),(mm),(kgf)
"0.0000","0.0000","0.0024"
"0.7000","0.5625","0.0318"
"1.4000","1.1469","0.0589"
"2.1000","1.7306","0.0838"
"2.8000","2.3137","0.1081"
"3.5000","2.8951","0.1323"
"4.2000","3.4790","0.1560"
"4.9000","4.0634","0.1799"
"5.6000","4.6473","0.2031"
"6.3000","5.2300","0.2265"
"7.0000","5.8129","0.2499"
"7.7000","6.3956","0.2734"
"8.4000","6.9795","0.2969"
"9.1000","7.5628","0.3200"
"9.8000","8.1467","0.3431"
"10.5000","8.7294","0.3665"
"11.2000","9.3132","0.3903"
"11.9000","9.8963","0.4141"
"12.6000","10.4800","0.4379"
"13.3000","11.0626","0.4618"
"14.0000","11.6452","0.4863"
"14.7000","12.2298","0.5111"
"15.4000","12.8142","0.5369"
"16.1000","13.3973","0.5624"
"16.8000","13.9791","0.5885"
"17.5000","14.5615","0.6151"
"18.2000","15.1460","0.6422"
"18.9000","15.7304","0.6693"
"19.6000","16.3134","0.6950"
"20.3000","16.8972","0.7203"
"21.0000","17.4786","0.7451"
"21.7000","18.0625","0.7699"
"22.4000","18.6464","0.7942"
"23.1000","19.2305","0.8180"
"23.8000","19.8137","0.8413"
"24.5000","20.3952","0.8646"
"25.2000","20.9789","0.8870"
"25.9000","21.5635","0.9094"
"26.6000","22.1474","0.9307"
"27.3000","22.7299","0.9514"
"28.0000","23.3127","0.9719"
"28.7000","23.8962","0.9920"
"29.4000","24.4791","1.0116"
"30.1000","25.0627","1.0304"
"30.8000","25.6468","1.0490"
"31.5000","26.2297","1.0673"
"32.2000","26.8135","1.0855"
"32.9000","27.3963","1.1032"
"33.6000","27.9799","1.1204"
"34.3000","28.5630","1.1372"
"35.0000","29.1447","1.1542"
"35.7000","29.7299","1.1709"
"36.4000","30.3143","1.1878"
"37.1000","30.8974","1.2038"
"37.8000","31.4789","1.2197"
"38.5000","32.0617","1.2355"
"39.2000","32.6460","1.2513"
"39.9000","33.2307","1.2671"
"40.6000","33.8134","1.2824"
"41.3000","34.3969","1.2975"
"42.0000","34.9783","1.3125"
"42.7000","35.5623","1.3278"
"43.4000","36.1466","1.3427"
"44.1000","36.7309","1.3573"
"44.8000","37.3138","1.3718"
"45.5000","37.8951","1.3862"
"46.2000","38.4789","1.4007"
"46.9000","39.0635","1.4152"
"47.6000","39.6472","1.4289"
"48.3000","40.2297","1.4428"
"49.0000","40.8127","1.4567"
"49.7000","41.3962","1.4707"
"50.4000","41.9797","1.4846"
"51.1000","42.5626","1.4979"
"51.8000","43.1468","1.5114"
"52.5000","43.7296","1.5251"
"53.2000","44.3132","1.5389"
"53.9000","44.8965","1.5523"
"54.6000","45.4798","1.5656"
"55.3000","46.0626","1.5786"
"56.0000","46.6452","1.5920"
"56.7000","47.2297","1.6053"
"57.4000","47.8144","1.6189"
"58.1000","48.3972","1.6318"
"58.8000","48.9789","1.6448"
"59.5000","49.5615","1.6575"
"60.2000","50.1460","1.6703"
"60.9000","50.7307","1.6833"
"61.6000","51.3136","1.6957"
"62.3000","51.8970","1.7078"
"63.0000","52.4786","1.7193"
"63.7000","53.0627","1.7308"
"64.4000","53.6463","1.7425"
"65.1000","54.2305","1.7549"
"65.8000","54.8137","1.7673"
"66.5000","55.3949","1.7801"
"67.2000","55.9787","1.7930"
"67.9000","56.5635","1.8062"
"68.6000","57.1473","1.8189"
"69.3000","57.7294","1.8315"
"70.0000","58.3123","1.8441"
"70.7000","58.8959","1.8568"
"71.4000","59.4794","1.8692"
"72.1000","60.0625","1.8810"
"72.8000","60.6468","1.8920"
"73.5000","61.2297","1.9036"
"74.2000","61.8134","1.9168"
"74.9000","62.3962","1.9298"
"75.6000","62.9801","1.9422"
"76.3000","63.5627","1.9542"
"77.0000","64.1448","1.9666"
"77.7000","64.7298","1.9786"
"78.4000","65.3147","1.9904"
"79.1000","65.8974","1.9989"
"79.8000","66.4792","2.0112"
"80.5000","67.0618","2.0237"
"81.2000","67.6460","2.0370"
"81.9000","68.2305","2.0500"
"82.6000","68.8133","2.0627"
"83.3000","69.3970","2.0753"
"84.0000","69.9785","2.0880"
"84.7000","70.5625","2.1009"
"85.4000","71.1465","2.1135"
"86.1000","71.7308","2.1260"
"86.8000","72.3138","2.1382"
"87.5000","72.8950","2.1509"
"88.2000","73.4787","2.1635"
"88.9000","74.0632","2.1763"
"89.6000","74.6472","2.1883"
"90.3000","75.2298","2.2005"
"91.0000","75.8130","2.2128"
"91.7000","76.3960","2.2252"
"92.4000","76.9796","2.2377"
"93.1000","77.5626","2.2499"
"93.8000","78.1469","2.2620"
"94.5000","78.7296","2.2745"
"95.2000","79.3134","2.2871"
"95.9000","79.8961","2.2995"
"96.6000","80.4800","2.3119"
"97.3000","81.0626","2.3239"
"98.0000","81.6449","2.3364"
"98.7000","82.2297","2.3488"
"99.4000","82.8142","2.3615"
"100.1000","83.3972","2.3737"
"100.8000","83.9788","2.3857"
"101.5000","84.5615","2.3980"
"102.2000","85.1460","2.4106"
"102.9000","85.7309","2.4231"
"103.6000","86.3132","2.4351"
"104.3000","86.8965","2.4472"
"105.0000","87.4786","2.4592"
"105.7000","88.0626","2.4714"
"106.4000","88.6465","2.4838"
"107.1000","89.2308","2.4957"
"107.8000","89.8136","2.5073"
"108.5000","90.3952","2.5194"
"109.2000","90.9790","2.5314"
"109.9000","91.5636","2.5437"
"110.6000","92.1472","2.5552"
"111.3000","92.7299","2.5669"
"112.0000","93.3126","2.5785"
"112.7000","93.8959","2.5907"
"113.4000","94.4793","2.6023"
"114.1000","95.0625","2.6134"
"114.8000","95.6469","2.6240"
"115.5000","96.2296","2.6334"
"116.2000","96.8132","2.6279"
"116.9000","97.3964","2.3919"
"117.6000","97.9800","2.4258"
"118.3000","98.5629","2.4560"
"119.0000","99.1453","2.4636"
"119.7000","99.7301","2.4864"
"120.4000","100.3145","2.5196"
"121.1000","100.8973","2.5464"
"121.8000","101.4790","2.5598"
"122.5000","102.0619","2.5734"
"123.2000","102.6462","2.5960"
"123.9000","103.2305","2.6193"
"124.6000","103.8134","2.6397"
"125.3000","104.3969","2.6581"
"126.0000","104.9788","2.6747"
"126.7000","105.5625","2.6900"
"127.4000","106.1466","2.7045"
"128.1000","106.7301","2.7180"
"128.8000","107.3137","2.7311"
"129.5000","107.8949","2.7445"
"130.2000","108.4788","2.7570"
"130.9000","109.0632","2.7704"
"131.6000","109.6471","2.7826"
"132.3000","110.2300","2.7953"
"133.0000","110.8129","2.8077"
"133.7000","111.3961","2.8204"
"134.4000","111.9799","2.8330"
"135.1000","112.5627","2.8452"
"135.8000","113.1469","2.8575"
"136.5000","113.7296","2.8699"
"137.2000","114.3134","2.8828"
"137.9000","114.8962","2.8953"
"138.6000","115.4795","2.9077"
"139.3000","116.0629","2.9198"
"140.0000","116.6454","2.9323"
"140.7000","117.2300","2.9448"
"141.4000","117.8144","2.9575"
"142.1000","118.3972","2.9697"
"142.8000","118.9792","2.9819"
"143.5000","119.5616","2.9944"
"144.2000","120.1460","3.0070"
"144.9000","120.7305","3.0197"
"145.6000","121.3135","3.0319"
"146.3000","121.8969","3.0442"
"147.0000","122.4792","3.0565"
"147.7000","123.0625","3.0690"
"148.4000","123.6464","3.0815"
"149.1000","124.2308","3.0939"
"149.8000","124.8138","3.1062"
"150.5000","125.3951","3.1188"
"151.2000","125.9791","3.1314"
"151.9000","126.5635","3.1442"
"152.6000","127.1474","3.1565"
"153.3000","127.7300","3.1689"
"154.0000","128.3126","3.1814"
"154.7000","128.8960","3.1941"
"155.4000","129.4796","3.2069"
"156.1000","130.0625","3.2193"
"156.8000","130.6469","3.2319"
"157.5000","131.2296","3.2443"
"158.2000","131.8136","3.2571"
"158.9000","132.3965","3.2697"
"159.6000","132.9801","3.2824"
"160.3000","133.5628","3.2946"
"161.0000","134.1443","3.3073"
"161.7000","134.7300","3.3200"
"162.4000","135.3144","3.3332"
"163.1000","135.8974","3.3455"
"163.8000","136.4790","3.3580"
"164.5000","137.0618","3.3705"
"165.2000","137.6461","3.3833"
"165.9000","138.2301","3.3962"
"166.6000","138.8135","3.4088"
"167.3000","139.3971","3.4212"
"168.0000","139.9784","3.4336"
"168.7000","140.5623","3.4464"
"169.4000","141.1463","3.4591"
"170.1000","141.7305","3.4714"
"170.8000","142.3136","3.4835"
"171.5000","142.8948","3.4961"
"172.2000","143.4791","3.5087"
"172.9000","144.0635","3.5217"
"173.6000","144.6472","3.5338"
"174.3000","145.2300","3.5460"
"175.0000","145.8129","3.5581"
"175.7000","146.3956","3.5703"
"176.4000","146.9797","3.5821"
"177.1000","147.5626","3.5931"
"177.8000","148.1468","3.6040"
"178.5000","148.7295","3.6143"
"179.2000","149.3133","3.6239"
"179.9000","149.8961","3.6279"
"180.6000","150.4800","3.0795"
"181.3000","151.0626","3.0263"
"182.0000","151.6450","3.0592"
"182.7000","152.2296","3.0978"
"183.4000","152.8142","3.1381"
"184.1000","153.3973","3.1770"
"184.8000","153.9790","3.2097"
"185.5000","154.5617","3.0966"
"186.2000","155.1459","3.0961"
"186.9000","155.7307","3.1229"
"187.6000","156.3137","3.1318"
"188.3000","156.8970","3.1731"
"189.0000","157.4787","3.2091"
"189.7000","158.0625","3.2460"
"190.4000","158.6464","3.2740"
"191.1000","159.2307","3.2949"
"191.8000","159.8139","3.3303"
"192.5000","160.3951","3.3685"
"193.2000","160.9789","3.4011"
"193.9000","161.5632","3.4300"
"193.9570","161.6118","2.0245"