Folder: Soft-Glove-Dissertation/tensile/test_1.is_qtest_Exports (part 2)

File: test_1_4.csv
Time,Displacement,Force
(s),(mm),(kgf)
"0.0000","0.0000","0.0003"
"0.4000","0.3144","0.0026"
"0.8000","0.6464","0.0068"
"1.2000","0.9787","0.0124"
"1.6000","1.3131","0.0171"
"2.0000","1.6450","0.0216"
"2.4000","1.9794","0.0274"
"2.8000","2.3135","0.0320"
"3.2000","2.6456","0.0369"
"3.6000","2.9798","0.0420"
"4.0000","3.3123","0.0461"
"4.4000","3.6460","0.0506"
"4.8000","3.9788","0.0546"
"5.2000","4.3130","0.0592"
"5.6000","4.6469","0.0636"
"6.0000","4.9782","0.0680"
"6.4000","5.3139","0.0732"
"6.8000","5.6466","0.0777"
"7.2000","5.9784","0.0832"
"7.6000","6.3133","0.0885"
"8.0000","6.6446","0.0935"
"8.4000","6.9793","0.0994"
"8.8000","7.3136","0.1045"
"9.2000","7.6455","0.1102"
"9.6000","7.9797","0.1161"
"10.0000","8.3121","0.1217"
"10.4000","8.6461","0.1280"
"10.8000","8.9784","0.1336"
"11.2000","9.3130","0.1401"
"11.6000","9.6468","0.1462"
"12.0000","9.9780","0.1526"
"12.4000","10.3139","0.1593"
"12.8000","10.6465","0.1651"
"13.2000","10.9785","0.1718"
"13.6000","11.3133","0.1785"
"14.0000","11.6448","0.1850"
"14.4000","11.9791","0.1923"
"14.8000","12.3136","0.1985"
"15.2000","12.6455","0.2055"
"15.6000","12.9795","0.2126"
"16.0000","13.3121","0.2194"
"16.4000","13.6459","0.2267"
"16.8000","13.9789","0.2336"
"17.2000","14.3129","0.2410"
"17.6000","14.6469","0.2482"
"18.0000","14.9781","0.2556"
"18.4000","15.3140","0.2634"
"18.8000","15.6466","0.2704"
"19.2000","15.9784","0.2781"
"19.6000","16.3131","0.2860"
"20.0000","16.6446","0.2935"
"20.4000","16.9792","0.3020"
"20.8000","17.3134","0.3095"
"21.2000","17.6455","0.3175"
"21.6000","17.9795","0.3259"
"22.0000","18.3123","0.3336"
"22.4000","18.6460","0.3420"
"22.8000","18.9786","0.3497"
"23.2000","19.3130","0.3579"
"23.6000","19.6469","0.3656"
"24.0000","19.9783","0.3732"
"24.4000","20.3140","0.3811"
"24.8000","20.6467","0.3879"
"25.2000","20.9786","0.3951"
"25.6000","21.3133","0.4019"
"26.0000","21.6448","0.4083"
"26.4000","21.9792","0.4152"
"26.8000","22.3135","0.4210"
"27.2000","22.6457","0.4274"
"27.6000","22.9795","0.4337"
"28.0000","23.3123","0.4394"
"28.4000","23.6460","0.4456"
"28.8000","23.9788","0.4513"
"29.2000","24.3127","0.4573"
"29.6000","24.6471","0.4628"
"30.0000","24.9784","0.4684"
"30.4000","25.3139","0.4746"
"30.8000","25.6462","0.4796"
"31.2000","25.9784","0.4854"
"31.6000","26.3133","0.4909"
"32.0000","26.6448","0.4960"
"32.4000","26.9790","0.5019"
"32.8000","27.3133","0.5068"
"33.2000","27.6457","0.5122"
"33.6000","27.9795","0.5176"
"34.0000","28.3124","0.5226"
"34.4000","28.6459","0.5280"
"34.8000","28.9786","0.5329"
"35.2000","29.3130","0.5382"
"35.6000","29.6470","0.5432"
"36.0000","29.9784","0.5481"
"36.4000","30.3137","0.5536"
"36.8000","30.6466","0.5581"
"37.2000","30.9785","0.5632"
"37.6000","31.3135","0.5683"
"38.0000","31.6447","0.5729"
"38.4000","31.9793","0.5783"
"38.8000","32.3133","0.5827"
"39.2000","32.6455","0.5875"
"39.6000","32.9795","0.5925"
"40.0000","33.3123","0.5971"
"40.4000","33.6458","0.6021"
"40.8000","33.9785","0.6066"
"41.2000","34.3127","0.6114"
"41.6000","34.6471","0.6160"
"42.0000","34.9782","0.6206"
"42.4000","35.3138","0.6257"
"42.8000","35.6465","0.6298"
"43.2000","35.9784","0.6346"
"43.6000","36.3135","0.6392"
"44.0000","36.6447","0.6436"
"44.4000","36.9791","0.6486"
"44.8000","37.3132","0.6526"
"45.2000","37.6454","0.6572"
"45.6000","37.9796","0.6618"
"46.0000","38.3125","0.6660"
"46.4000","38.6459","0.6707"
"46.8000","38.9785","0.6748"
"47.2000","39.3129","0.6795"
"47.6000","39.6472","0.6837"
"48.0000","39.9782","0.6880"
"48.4000","40.3139","0.6928"
"48.8000","40.6463","0.6964"
"49.2000","40.9785","0.7010"
"49.6000","41.3134","0.7053"
"50.0000","41.6449","0.7094"
"50.4000","41.9791","0.7140"
"50.8000","42.3133","0.7177"
"51.2000","42.6455","0.7219"
"51.6000","42.9795","0.7261"
"52.0000","43.3123","0.7300"
"52.4000","43.6461","0.7343"
"52.8000","43.9784","0.7380"
"53.2000","44.3129","0.7421"
"53.6000","44.6469","0.7457"
"54.0000","44.9781","0.7491"
"54.4000","45.3139","0.7533"
"54.8000","45.6465","0.7566"
"55.2000","45.9784","0.7607"
"55.6000","46.3132","0.7644"
"56.0000","46.6446","0.7675"
"56.4000","46.9792","0.7709"
"56.8000","47.3131","0.7711"
"57.2000","47.6458","0.7625"
"57.6000","47.9795","0.7497"
"58.0000","48.3123","0.7559"
"58.4000","48.6460","0.7639"
"58.8000","48.9789","0.7706"
"59.2000","49.3129","0.7768"
"59.6000","49.6466","0.7819"
"60.0000","49.9782","0.7866"
"60.4000","50.3140","0.7914"
"60.8000","50.6466","0.7951"
"61.2000","50.9786","0.7994"
"61.6000","51.3131","0.8034"
"62.0000","51.6445","0.8072"
"62.4000","51.9791","0.8115"
"62.8000","52.3133","0.8150"
"63.2000","52.6455","0.8189"
"63.6000","52.9795","0.8230"
"64.0000","53.3122","0.8266"
"64.4000","53.6463","0.8308"
"64.8000","53.9786","0.8343"
"65.2000","54.3130","0.8384"
"65.6000","54.6468","0.8420"
"66.0000","54.9782","0.8459"
"66.4000","55.3138","0.8501"
"66.8000","55.6464","0.8533"
"67.2000","55.9786","0.8573"
"67.6000","56.3133","0.8612"
"68.0000","56.6448","0.8647"
"68.4000","56.9789","0.8690"
"68.8000","57.3134","0.8721"
"69.2000","57.6456","0.8761"
"69.6000","57.9795","0.8801"
"70.0000","58.3123","0.8835"
"70.4000","58.6461","0.8875"
"70.8000","58.9786","0.8910"
"71.2000","59.3130","0.8950"
"71.6000","59.6470","0.8985"
"72.0000","59.9783","0.9023"
"72.4000","60.3140","0.9064"
"72.8000","60.6465","0.9096"
"73.2000","60.9785","0.9136"
"73.6000","61.3133","0.9173"
"74.0000","61.6447","0.9208"
"74.4000","61.9792","0.9250"
"74.8000","62.3132","0.9281"
"75.2000","62.6455","0.9319"
"75.6000","62.9797","0.9358"
"76.0000","63.3122","0.9392"
"76.4000","63.6459","0.9433"
"76.8000","63.9781","0.9467"
"77.2000","64.3130","0.9505"
"77.6000","64.6470","0.9541"
"78.0000","64.9783","0.9577"
"78.4000","65.3140","0.9619"
"78.8000","65.6464","0.9650"
"79.2000","65.9788","0.9689"
"79.6000","66.3132","0.9726"
"80.0000","66.6446","0.9761"
"80.4000","66.9792","0.9802"
"80.8000","67.3131","0.9832"
"81.2000","67.6459","0.9871"
"81.6000","67.9796","0.9910"
"82.0000","68.3122","0.9943"
"82.4000","68.6459","0.9983"
"82.8000","68.9786","1.0017"
"83.2000","69.3131","1.0056"
"83.6000","69.6471","1.0090"
"84.0000","69.9781","1.0126"
"84.4000","70.3139","1.0167"
"84.8000","70.6464","1.0199"
"85.2000","70.9785","1.0237"
"85.6000","71.3134","1.0274"
"86.0000","71.6445","1.0308"
"86.4000","71.9792","1.0348"
"86.8000","72.3132","1.0379"
"87.2000","72.6455","1.0416"
"87.6000","72.9795","1.0453"
"88.0000","73.3122","1.0487"
"88.4000","73.6459","1.0527"
"88.8000","73.9783","1.0560"
"89.2000","74.3130","1.0598"
"89.6000","74.6468","1.0634"
"90.0000","74.9781","1.0668"
"90.4000","75.3139","1.0708"
"90.8000","75.6463","1.0739"
"91.2000","75.9783","1.0777"
"91.6000","76.3133","1.0814"
"92.0000","76.6446","1.0848"
"92.4000","76.9791","1.0889"
"92.8000","77.3133","1.0920"
"93.2000","77.6454","1.0957"
"93.6000","77.9795","1.0995"
"94.0000","78.3121","1.1027"
"94.4000","78.6460","1.1067"
"94.8000","78.9787","1.1101"
"95.2000","79.3129","1.1139"
"95.6000","79.6470","1.1173"
"96.0000","79.9784","1.1208"
"96.4000","80.3140","1.1249"
"96.8000","80.6466","1.1280"
"97.2000","80.9786","1.1317"
"97.6000","81.3133","1.1353"
"98.0000","81.6448","1.1387"
"98.4000","81.9793","1.1428"
"98.8000","82.3132","1.1459"
"99.2000","82.6454","1.1495"
"99.6000","82.9797","1.1533"
"100.0000","83.3120","1.1566"
"100.4000","83.6459","1.1605"
"100.8000","83.9786","1.1638"
"101.2000","84.3130","1.1676"
"101.6000","84.6469","1.1711"
"102.0000","84.9783","1.1746"
"102.4000","85.3141","1.1786"
"102.8000","85.6467","1.1817"
"103.2000","85.9784","1.1855"
"103.6000","86.3131","1.1891"
"104.0000","86.6446","1.1924"
"104.4000","86.9790","1.1964"
"104.8000","87.3134","1.1995"
"105.2000","87.6460","1.2031"
"105.6000","87.9795","1.2068"
"106.0000","88.3123","1.2102"
"106.4000","88.6461","1.2141"
"106.8000","88.9787","1.2173"
"107.2000","89.3125","1.2207"
"107.2950","89.3925","0.7090"

File: test_1_5.csv
Time,Displacement,Force
(s),(mm),(kgf)
"0.0000","0.0000","0.0004"
"0.4000","0.3014","0.0069"
"0.8000","0.6351","0.0157"
"1.2000","0.9680","0.0210"
"1.6000","1.3012","0.0264"
"2.0000","1.6337","0.0320"
"2.4000","1.9664","0.0373"
"2.8000","2.3019","0.0425"
"3.2000","2.6338","0.0468"
"3.6000","2.9673","0.0519"
"4.0000","3.3015","0.0562"
"4.4000","3.6328","0.0606"
"4.8000","3.9673","0.0655"
"5.2000","4.3009","0.0692"
"5.6000","4.6337","0.0739"
"6.0000","4.9684","0.0779"
"6.4000","5.3007","0.0815"
"6.8000","5.6348","0.0860"
"7.2000","5.9680","0.0898"
"7.6000","6.3011","0.0940"
"8.0000","6.6337","0.0978"
"8.4000","6.9661","0.1016"
"8.8000","7.3019","0.1056"
"9.2000","7.6339","0.1088"
"9.6000","7.9672","0.1129"
"10.0000","8.3015","0.1164"
"10.4000","8.6329","0.1200"
"10.8000","8.9679","0.1240"
"11.2000","9.3010","0.1272"
"11.6000","9.6337","0.1313"
"12.0000","9.9686","0.1348"
"12.4000","10.3011","0.1382"
"12.8000","10.6351","0.1423"
"13.2000","10.9681","0.1456"
"13.6000","11.3015","0.1492"
"14.0000","11.6335","0.1529"
"14.4000","11.9664","0.1567"
"14.8000","12.3018","0.1606"
"15.2000","12.6339","0.1638"
"15.6000","12.9672","0.1680"
"16.0000","13.3016","0.1716"
"16.4000","13.6332","0.1754"
"16.8000","13.9677","0.1798"
"17.2000","14.3013","0.1832"
"17.6000","14.6340","0.1875"
"18.0000","14.9687","0.1915"
"18.4000","15.3005","0.1953"
"18.8000","15.6347","0.1999"
"19.2000","15.9682","0.2037"
"19.6000","16.3012","0.2081"
"20.0000","16.6338","0.2125"
"20.4000","16.9663","0.2170"
"20.8000","17.3019","0.2217"
"21.2000","17.6339","0.2259"
"21.6000","17.9675","0.2312"
"22.0000","18.3017","0.2360"
"22.4000","18.6330","0.2410"
"22.8000","18.9678","0.2467"
"23.2000","19.3012","0.2518"
"23.6000","19.6339","0.2577"
"24.0000","19.9687","0.2634"
"24.4000","20.3010","0.2691"
"24.8000","20.6349","0.2758"
"25.2000","20.9681","0.2817"
"25.6000","21.3013","0.2882"
"26.0000","21.6338","0.2949"
"26.4000","21.9662","0.3016"
"26.8000","22.3018","0.3084"
"27.2000","22.6339","0.3143"
"27.6000","22.9672","0.3210"
"28.0000","23.3017","0.3266"
"28.4000","23.6329","0.3321"
"28.8000","23.9678","0.3378"
"29.2000","24.3012","0.3421"
"29.6000","24.6341","0.3470"
"30.0000","24.9686","0.3515"
"30.4000","25.3011","0.3557"
"30.8000","25.6349","0.3605"
"31.2000","25.9683","0.3644"
"31.6000","26.3014","0.3686"
"32.0000","26.6338","0.3727"
"32.4000","26.9662","0.3769"
"32.8000","27.3018","0.3812"
"33.2000","27.6337","0.3847"
"33.6000","27.9674","0.3891"
"34.0000","28.3016","0.3929"
"34.4000","28.6329","0.3969"
"34.8000","28.9678","0.4012"
"35.2000","29.3011","0.4047"
"35.6000","29.6339","0.4090"
"36.0000","29.9684","0.4127"
"36.4000","30.3007","0.4162"
"36.8000","30.6347","0.4206"
"37.2000","30.9683","0.4240"
"37.6000","31.3012","0.4279"
"38.0000","31.6338","0.4317"
"38.4000","31.9664","0.4356"
"38.8000","32.3017","0.4396"
"39.2000","32.6338","0.4428"
"39.6000","32.9674","0.4469"
"40.0000","33.3020","0.4504"
"40.4000","33.6328","0.4541"
"40.8000","33.9680","0.4582"
"41.2000","34.3010","0.4615"
"41.6000","34.6341","0.4655"
"42.0000","34.9678","0.4690"
"42.4000","35.3009","0.4725"
"42.8000","35.6349","0.4768"
"43.2000","35.9682","0.4800"
"43.6000","36.3013","0.4837"
"44.0000","36.6339","0.4874"
"44.4000","36.9666","0.4911"
"44.8000","37.3019","0.4949"
"45.2000","37.6337","0.4980"
"45.6000","37.9673","0.5020"
"46.0000","38.3016","0.5055"
"46.4000","38.6327","0.5090"
"46.8000","38.9677","0.5131"
"47.2000","39.3011","0.5162"
"47.6000","39.6338","0.5201"
"48.0000","39.9687","0.5237"
"48.4000","40.3011","0.5271"
"48.8000","40.6350","0.5311"
"49.2000","40.9683","0.5343"
"49.6000","41.3011","0.5378"
"50.0000","41.6336","0.5414"
"50.4000","41.9663","0.5451"
"50.8000","42.3016","0.5489"
"51.2000","42.6340","0.5520"
"51.6000","42.9670","0.5559"
"52.0000","43.3015","0.5593"
"52.4000","43.6328","0.5628"
"52.8000","43.9676","0.5668"
"53.2000","44.3011","0.5698"
"53.6000","44.6337","0.5737"
"54.0000","44.9687","0.5771"
"54.4000","45.3008","0.5806"
"54.8000","45.6351","0.5847"
"55.2000","45.9683","0.5878"
"55.6000","46.3009","0.5912"
"56.0000","46.6337","0.5948"
"56.4000","46.9665","0.5983"
"56.8000","47.3019","0.6021"
"57.2000","47.6339","0.6051"
"57.6000","47.9674","0.6091"
"58.0000","48.3015","0.6124"
"58.4000","48.6330","0.6158"
"58.8000","48.9677","0.6198"
"59.2000","49.3014","0.6228"
"59.6000","49.6337","0.6267"
"60.0000","49.9687","0.6301"
"60.4000","50.3009","0.6334"
"60.8000","50.6351","0.6374"
"61.2000","50.9684","0.6404"
"61.6000","51.3012","0.6439"
"62.0000","51.6336","0.6474"
"62.4000","51.9664","0.6509"
"62.8000","52.3018","0.6546"
"63.2000","52.6340","0.6576"
"63.6000","52.9672","0.6615"
"64.0000","53.3014","0.6648"
"64.4000","53.6327","0.6683"
"64.8000","53.9679","0.6721"
"65.2000","54.3012","0.6751"
"65.6000","54.6337","0.6789"
"66.0000","54.9687","0.6824"
"66.4000","55.3011","0.6856"
"66.8000","55.6349","0.6895"
"67.2000","55.9682","0.6927"
"67.6000","56.3011","0.6961"
"68.0000","56.6338","0.6996"
"68.4000","56.9664","0.7031"
"68.8000","57.3018","0.7067"
"69.2000","57.6339","0.7098"
"69.6000","57.9674","0.7137"
"70.0000","58.3015","0.7169"
"70.4000","58.6328","0.7203"
"70.8000","58.9676","0.7242"
"71.2000","59.3010","0.7271"
"71.6000","59.6340","0.7309"
"72.0000","59.9684","0.7343"
"72.4000","60.3007","0.7375"
"72.8000","60.6349","0.7414"
"73.2000","60.9682","0.7445"
"73.6000","61.3013","0.7479"
"74.0000","61.6338","0.7513"
"74.4000","61.9665","0.7549"
"74.8000","62.3017","0.7584"
"75.2000","62.6338","0.7614"
"75.6000","62.9673","0.7652"
"76.0000","63.3017","0.7685"
"76.4000","63.6328","0.7717"
"76.8000","63.9677","0.7756"
"77.2000","64.3010","0.7784"
"77.6000","64.6339","0.7821"
"78.0000","64.9688","0.7854"
"78.4000","65.3009","0.7884"
"78.8000","65.6348","0.7922"
"79.2000","65.9685","0.7951"
"79.6000","66.3012","0.7984"
"80.0000","66.6337","0.8017"
"80.4000","66.9662","0.8051"
"80.8000","67.3019","0.8086"
"81.2000","67.6341","0.8114"
"81.6000","67.9672","0.8151"
"82.0000","68.3016","0.8184"
"82.4000","68.6325","0.8215"
"82.8000","68.9678","0.8253"
"83.2000","69.3012","0.8282"
"83.6000","69.6338","0.8317"
"84.0000","69.9686","0.8350"
"84.4000","70.3008","0.8380"
"84.8000","70.6344","0.8416"
"85.2000","70.9682","0.8443"
"85.6000","71.3012","0.8476"
"86.0000","71.6340","0.8508"
"86.4000","71.9666","0.8541"
"86.8000","72.3019","0.8575"
"87.2000","72.6338","0.8603"
"87.6000","72.9674","0.8639"
"88.0000","73.3016","0.8670"
"88.4000","73.6328","0.8702"
"88.8000","73.9679","0.8738"
"89.2000","74.3011","0.8765"
"89.6000","74.6340","0.8800"
"90.0000","74.9686","0.8830"
"90.4000","75.3010","0.8858"
"90.8000","75.6350","0.8891"
"91.2000","75.9680","0.8917"
"91.6000","76.3012","0.8946"
"92.0000","76.6339","0.8974"
"92.4000","76.9666","0.9001"
"92.8000","77.3016","0.9031"
"93.2000","77.6338","0.9054"
"93.6000","77.9672","0.9085"
"94.0000","78.3017","0.9112"
"94.4000","78.6330","0.9140"
"94.8000","78.9678","0.9172"
"95.2000","79.3010","0.9197"
"95.6000","79.6338","0.9229"
"96.0000","79.9686","0.9256"
"96.4000","80.3010","0.9281"
"96.8000","80.6349","0.9314"
"97.2000","80.9682","0.9340"
"97.6000","81.3013","0.9371"
"98.0000","81.6338","0.9400"
"98.4000","81.9665","0.9430"
"98.8000","82.3016","0.9460"
"99.2000","82.6335","0.9485"
"99.6000","82.9676","0.9519"
"100.0000","83.3017","0.9546"
"100.4000","83.6329","0.9574"
"100.8000","83.9679","0.9607"
"101.2000","84.3010","0.9633"
"101.6000","84.6338","0.9665"
"102.0000","84.9686","0.9689"
"102.4000","85.3011","0.9714"
"102.8000","85.6351","0.9744"
"103.2000","85.9682","0.9767"
"103.6000","86.3012","0.9795"
"104.0000","86.6336","0.9820"
"104.4000","86.9665","0.9846"
"104.8000","87.3017","0.9875"
"105.2000","87.6337","0.9899"
"105.6000","87.9674","0.9930"
"106.0000","88.3016","0.9957"
"106.4000","88.6329","0.9985"
"106.8000","88.9679","1.0019"
"107.2000","89.3010","1.0045"
"107.6000","89.6339","1.0079"
"108.0000","89.9685","1.0106"
"108.4000","90.3008","1.0133"
"108.8000","90.6352","1.0166"
"109.2000","90.9681","1.0192"
"109.6000","91.3011","1.0223"
"110.0000","91.6335","1.0255"
"110.4000","91.9665","1.0286"
"110.8000","92.3020","1.0320"
"111.2000","92.6339","1.0349"
"111.6000","92.9675","1.0386"
"112.0000","93.3014","1.0416"
"112.4000","93.6328","1.0447"
"112.8000","93.9678","1.0483"
"113.2000","94.3012","1.0510"
"113.6000","94.6340","1.0546"
"114.0000","94.9685","1.0576"
"114.4000","95.3007","1.0606"
"114.8000","95.6352","1.0642"
"115.2000","95.9684","1.0668"
"115.6000","96.3012","1.0695"
"115.6540","96.3443","0.6174"

File: test_1_6.csv
Time,Displacement,Force
(s),(mm),(kgf)
"0.0000","0.0000","0.0015"
"0.5000","0.3880","0.0267"
"1.0000","0.8039","0.0553"
"1.5000","1.2205","0.0831"
"2.0000","1.6372","0.1087"
"2.5000","2.0529","0.1326"
"3.0000","2.4701","0.1560"
"3.5000","2.8876","0.1789"
"4.0000","3.3037","0.2011"
"4.5000","3.7205","0.2229"
"5.0000","4.1372","0.2446"
"5.5000","4.5527","0.2659"
"6.0000","4.9701","0.2869"
"6.5000","5.3875","0.3077"
"7.0000","5.8040","0.3282"
"7.5000","6.2205","0.3485"
"8.0000","6.6374","0.3685"
"8.5000","7.0529","0.3885"
"9.0000","7.4704","0.4083"
"9.5000","7.8879","0.4280"
"10.0000","8.3037","0.4476"
"10.5000","8.7204","0.4671"
"11.0000","9.1374","0.4867"
"11.5000","9.5527","0.5062"
"12.0000","9.9700","0.5258"
"12.5000","10.3880","0.5454"
"13.0000","10.8038","0.5652"
"13.5000","11.2205","0.5852"
"14.0000","11.6373","0.6054"
"14.5000","12.0529","0.6259"
"15.0000","12.4699","0.6465"
"15.5000","12.8874","0.6675"
"16.0000","13.3036","0.6886"
"16.5000","13.7206","0.7101"
"17.0000","14.1372","0.7316"
"17.5000","14.5528","0.7534"
"18.0000","14.9701","0.7748"
"18.5000","15.3880","0.7959"
"19.0000","15.8040","0.8164"
"19.5000","16.2206","0.8368"
"20.0000","16.6374","0.8567"
"20.5000","17.0531","0.8764"
"21.0000","17.4702","0.8958"
"21.5000","17.8876","0.9149"
"22.0000","18.3040","0.9335"
"22.5000","18.7205","0.9517"
"23.0000","19.1374","0.9695"
"23.5000","19.5528","0.9871"
"24.0000","19.9701","1.0042"
"24.5000","20.3879","1.0206"
"25.0000","20.8039","1.0369"
"25.5000","21.2206","1.0527"
"26.0000","21.6371","1.0682"
"26.5000","22.0530","1.0834"
"27.0000","22.4700","1.0983"
"27.5000","22.8878","1.1130"
"28.0000","23.3038","1.1273"
"28.5000","23.7205","1.1413"
"29.0000","24.1366","1.1551"
"29.5000","24.5529","1.1687"
"30.0000","24.9697","1.1822"
"30.5000","25.3877","1.1955"
"31.0000","25.8039","1.2086"
"31.5000","26.2206","1.2215"
"32.0000","26.6373","1.2341"
"32.5000","27.0531","1.2467"
"33.0000","27.4701","1.2590"
"33.5000","27.8878","1.2713"
"34.0000","28.3040","1.2831"
"34.5000","28.7205","1.2949"
"35.0000","29.1371","1.3064"
"35.5000","29.5528","1.3179"
"36.0000","29.9702","1.3294"
"36.5000","30.3876","1.3409"
"37.0000","30.8039","1.3519"
"37.5000","31.2204","1.3627"
"38.0000","31.6372","1.3733"
"38.5000","32.0529","1.3838"
"39.0000","32.4700","1.3941"
"39.5000","32.8877","1.4043"
"40.0000","33.3039","1.4143"
"40.5000","33.7206","1.4243"
"41.0000","34.1371","1.4339"
"41.5000","34.5528","1.4435"
"42.0000","34.9700","1.4525"
"42.5000","35.3879","1.4613"
"43.0000","35.8038","1.4699"
"43.5000","36.2206","1.4786"
"44.0000","36.6374","1.4872"
"44.5000","37.0531","1.4958"
"45.0000","37.4702","1.5045"
"45.5000","37.8875","1.5130"
"46.0000","38.3039","1.5213"
"46.5000","38.7204","1.5298"
"47.0000","39.1373","1.5386"
"47.5000","39.5526","1.5476"
"48.0000","39.9701","1.5566"
"48.5000","40.3878","1.5654"
"49.0000","40.8039","1.5733"
"49.5000","41.2205","1.5810"
"50.0000","41.6373","1.5886"
"50.5000","42.0529","1.5963"
"51.0000","42.4701","1.6040"
"51.5000","42.8876","1.6113"
"52.0000","43.3038","1.6179"
"52.5000","43.7205","1.6249"
"53.0000","44.1373","1.6314"
"53.5000","44.5526","1.6373"
"54.0000","44.9701","1.6438"
"54.5000","45.3877","1.6519"
"55.0000","45.8039","1.6601"
"55.5000","46.2207","1.6689"
"56.0000","46.6373","1.6780"
"56.5000","47.0529","1.6872"
"57.0000","47.4702","1.6961"
"57.5000","47.8877","1.7053"
"58.0000","48.3039","1.7142"
"58.5000","48.7205","1.7232"
"59.0000","49.1371","1.7322"
"59.5000","49.5529","1.7416"
"60.0000","49.9700","1.7509"
"60.5000","50.3876","1.7602"
"61.0000","50.8037","1.7695"
"61.5000","51.2206","1.7786"
"62.0000","51.6373","1.7875"
"62.5000","52.0530","1.7968"
"63.0000","52.4700","1.8058"
"63.5000","52.8877","1.8148"
"64.0000","53.3039","1.8237"
"64.5000","53.7204","1.8329"
"65.0000","54.1373","1.8419"
"65.5000","54.5530","1.8508"
"66.0000","54.9700","1.8597"
"66.5000","55.3878","1.8687"
"67.0000","55.8038","1.8777"
"67.5000","56.2205","1.8866"
"68.0000","56.6373","1.8960"
"68.5000","57.0530","1.9051"
"69.0000","57.4700","1.9142"
"69.5000","57.8877","1.9234"
"70.0000","58.3038","1.9324"
"70.5000","58.7206","1.9415"
"71.0000","59.1372","1.9505"
"71.5000","59.5530","1.9588"
"72.0000","59.9700","1.9678"
"72.5000","60.3877","1.9769"
"73.0000","60.8040","1.9860"
"73.5000","61.2206","1.9950"
"74.0000","61.6372","2.0041"
"74.5000","62.0531","2.0132"
"75.0000","62.4702","2.0224"
"75.5000","62.8875","2.0316"
"76.0000","63.3042","2.0408"
"76.5000","63.7205","2.0498"
"77.0000","64.1373","2.0589"
"77.5000","64.5531","2.0680"
"78.0000","64.9704","2.0771"
"78.5000","65.3879","2.0860"
"79.0000","65.8042","2.0952"
"79.5000","66.2206","2.1042"
"80.0000","66.6373","2.1132"
"80.5000","67.0530","2.1225"
"81.0000","67.4703","2.1318"
"81.5000","67.8876","2.1410"
"82.0000","68.3038","2.1503"
"82.5000","68.7206","2.1595"
"83.0000","69.1371","2.1689"
"83.5000","69.5528","2.1781"
"84.0000","69.9701","2.1873"
"84.5000","70.3877","2.1966"
"85.0000","70.8039","2.2058"
"85.5000","71.2206","2.2151"
"86.0000","71.6373","2.2243"
"86.5000","72.0531","2.2336"
"87.0000","72.4701","2.2428"
"87.5000","72.8876","2.2521"
"88.0000","73.3039","2.2614"
"88.5000","73.7205","2.2704"
"89.0000","74.1372","2.2797"
"89.5000","74.5528","2.2888"
"90.0000","74.9702","2.2980"
"90.5000","75.3878","2.3071"
"91.0000","75.8040","2.3163"
"91.5000","76.2204","2.3253"
"92.0000","76.6373","2.3345"
"92.5000","77.0528","2.3438"
"93.0000","77.4702","2.3531"
"93.5000","77.8875","2.3623"
"94.0000","78.3037","2.3714"
"94.5000","78.7208","2.3805"
"95.0000","79.1371","2.3898"
"95.5000","79.5528","2.3990"
"96.0000","79.9699","2.4081"
"96.5000","80.3879","2.4172"
"97.0000","80.8039","2.4262"
"97.5000","81.2205","2.4351"
"98.0000","81.6375","2.4441"
"98.5000","82.0531","2.4531"
"99.0000","82.4701","2.4620"
"99.5000","82.8877","2.4709"
"100.0000","83.3039","2.4799"
"100.5000","83.7204","2.4888"
"101.0000","84.1371","2.4977"
"101.5000","84.5528","2.5066"
"102.0000","84.9702","2.5154"
"102.5000","85.3877","2.5241"
"103.0000","85.8038","2.5328"
"103.5000","86.2207","2.5414"
"104.0000","86.6374","2.5498"
"104.5000","87.0530","2.5584"
"105.0000","87.4699","2.5669"
"105.5000","87.8877","2.5754"
"106.0000","88.3039","2.5839"
"106.5000","88.7204","2.5923"
"107.0000","89.1374","2.6006"
"107.5000","89.5529","2.6090"
"108.0000","89.9703","2.6172"
"108.5000","90.3878","2.6254"
"109.0000","90.8039","2.6333"
"109.5000","91.2207","2.6402"
"110.0000","91.6375","2.6458"
"110.5000","92.0527","2.6515"
"111.0000","92.4702","2.6579"
"111.5000","92.8877","2.6665"
"112.0000","93.3040","2.6762"
"112.5000","93.7207","2.6859"
"113.0000","94.1373","2.6960"
"113.5000","94.5529","2.7057"
"114.0000","94.9702","2.7157"
"114.5000","95.3878","2.7256"
"115.0000","95.8041","2.7355"
"115.5000","96.2207","2.7449"
"116.0000","96.6373","2.7543"
"116.5000","97.0527","2.7637"
"117.0000","97.4702","2.7732"
"117.5000","97.8877","2.7825"
"118.0000","98.3039","2.7919"
"118.5000","98.7206","2.8011"
"119.0000","99.1371","2.8101"
"119.5000","99.5528","2.8193"
"120.0000","99.9700","2.8282"
"120.5000","100.3879","2.8365"
"120.7450","100.5918","1.6329"